exp_num,launch_mode,manip_order,condition_B,condition_C,sys_time,exp_time,process_name,lure,block_index,trial_index,stim_index,duration,rt,sn,choice,confidence,note
50,1440p_flscr,1,null,null,2025-03-27_19:28:48,72.21401639998658,exercise,neutral,0,0,0,0.75,11.075565499981167,0,1,2,null
50,1440p_flscr,1,null,null,2025-03-27_19:29:03,87.64554149998003,exercise,neutral,0,1,1,0.75,4.37652170000365,0,0,-3,null
50,1440p_flscr,1,null,null,2025-03-27_19:29:13,97.6295853999909,exercise,neutral,0,2,0,0.75,4.416728200012585,1,0,-4,null
50,1440p_flscr,1,null,null,2025-03-27_19:29:23,107.43219649998355,exercise,neutral,0,3,1,0.75,4.395067500008736,1,1,6,null
50,1440p_flscr,1,null,null,2025-03-27_19:29:36,121.00167899997905,formal_neutral,neutral,1,0,0,0.75,4.569019000016851,1,1,6,null
50,1440p_flscr,1,null,null,2025-03-27_19:29:44,128.57763019998674,formal_neutral,neutral,1,1,0,0.75,2.3591103999933694,0,1,2,null
50,1440p_flscr,1,null,null,2025-03-27_19:29:52,136.27879359998042,formal_neutral,neutral,1,2,1,0.75,2.4759159999957774,0,1,3,null
50,1440p_flscr,1,null,null,2025-03-27_19:29:59,143.1383569999889,formal_neutral,neutral,1,3,1,0.75,1.9136603999941144,1,1,3,null
50,1440p_flscr,1,null,null,2025-03-27_19:30:08,152.73986919998424,formal_neutral,neutral,1,4,2,0.75,4.276520099985646,1,1,6,null
50,1440p_flscr,1,null,null,2025-03-27_19:30:17,161.28267129999585,formal_neutral,neutral,1,5,3,0.75,3.3031224999867845,1,1,6,null
50,1440p_flscr,1,null,null,2025-03-27_19:30:25,170.06996849999996,formal_neutral,neutral,1,6,4,0.75,2.83642229999532,1,1,5,null
50,1440p_flscr,1,null,null,2025-03-27_19:30:36,180.30512079998152,formal_neutral,neutral,1,7,5,0.75,2.678889100003289,1,1,6,null
50,1440p_flscr,1,null,null,2025-03-27_19:30:48,192.8085502999893,formal_neutral,neutral,1,8,2,0.75,3.874328299978515,0,0,-6,null
50,1440p_flscr,1,null,null,2025-03-27_19:31:02,206.3871833999874,formal_neutral,neutral,1,9,3,0.75,2.5855145000095945,0,0,-4,null
50,1440p_flscr,1,null,null,2025-03-27_19:31:09,214.08348819997627,formal_neutral,neutral,1,10,4,0.75,2.2652179999859072,0,1,2,null
50,1440p_flscr,1,null,null,2025-03-27_19:31:19,223.75782239998807,formal_neutral,neutral,1,11,5,0.75,4.2030502000125125,0,0,-3,null
50,1440p_flscr,1,null,null,2025-03-27_19:32:00,264.2339180999843,formal_neutral,neutral,1,12,6,0.75,2.696477000019513,1,1,4,null
50,1440p_flscr,1,null,null,2025-03-27_19:32:08,272.7461571999884,formal_neutral,neutral,1,13,6,0.75,2.5063741999911144,0,1,5,null
50,1440p_flscr,1,null,null,2025-03-27_19:32:17,281.6653899999801,formal_neutral,neutral,1,14,7,0.75,2.175787099986337,0,0,-3,null
50,1440p_flscr,1,null,null,2025-03-27_19:32:26,290.98727879999205,formal_neutral,neutral,1,15,7,0.75,3.7621049000008497,1,1,6,null
50,1440p_flscr,1,null,null,2025-03-27_19:32:35,299.88919409998925,formal_neutral,neutral,1,16,8,0.75,2.480433799995808,1,1,4,null
50,1440p_flscr,1,null,null,2025-03-27_19:32:44,308.6082059999753,formal_neutral,neutral,1,17,9,0.75,2.488969799975166,1,1,3,null
50,1440p_flscr,1,null,null,2025-03-27_19:32:51,316.0175096000021,formal_neutral,neutral,1,18,10,0.75,1.9630829000088852,1,0,-3,null
50,1440p_flscr,1,null,null,2025-03-27_19:32:59,323.769218499976,formal_neutral,neutral,1,19,8,0.75,2.1223158000211697,0,0,-3,null
50,1440p_flscr,1,null,null,2025-03-27_19:33:07,331.78417549998267,formal_neutral,neutral,1,20,9,0.75,2.1360081000020728,0,1,3,null
50,1440p_flscr,1,null,null,2025-03-27_19:33:16,340.5346840999846,formal_neutral,neutral,1,21,11,0.75,2.9069252999906894,1,1,5,null
50,1440p_flscr,1,null,null,2025-03-27_19:33:23,347.89923609999823,formal_neutral,neutral,1,22,12,0.75,2.042702700011432,1,1,4,null
50,1440p_flscr,1,null,null,2025-03-27_19:33:34,358.98957529998734,formal_neutral,neutral,1,23,13,0.75,2.764532800007146,1,1,3,null
50,1440p_flscr,1,null,null,2025-03-27_19:33:42,366.74621519999346,formal_neutral,neutral,1,24,10,0.75,2.5607141999935266,0,0,-3,null
50,1440p_flscr,1,null,null,2025-03-27_19:33:50,374.98636969999643,formal_neutral,neutral,1,25,11,0.75,2.7199565999908373,0,0,-2,null
50,1440p_flscr,1,null,null,2025-03-27_19:34:03,387.5329402999778,formal_neutral,neutral,1,26,14,0.75,3.8755207000067458,1,1,6,null
50,1440p_flscr,1,null,null,2025-03-27_19:34:11,395.5847986000008,formal_neutral,neutral,1,27,12,0.75,2.7480551000044215,0,1,3,null
50,1440p_flscr,1,null,null,2025-03-27_19:34:18,403.087031699979,formal_neutral,neutral,1,28,15,0.75,2.1371460999944247,1,1,3,null
50,1440p_flscr,1,null,null,2025-03-27_19:34:26,410.39888909997535,formal_neutral,neutral,1,29,13,0.75,2.0802838999952655,0,1,3,null
50,1440p_flscr,1,null,null,2025-03-27_19:34:33,417.879220599978,formal_neutral,neutral,1,30,14,0.75,2.0576456999988295,0,0,-3,null
50,1440p_flscr,1,null,null,2025-03-27_19:34:43,427.47838639997644,formal_neutral,neutral,1,31,15,0.75,2.894805699994322,0,1,2,null
50,1440p_flscr,1,null,null,2025-03-27_19:34:51,435.85551359999226,formal_neutral,neutral,1,32,16,0.75,2.4995360000175424,1,1,3,null
50,1440p_flscr,1,null,null,2025-03-27_19:34:59,443.39063469998655,formal_neutral,neutral,1,33,17,0.75,1.798800399992615,1,1,2,null
50,1440p_flscr,1,null,null,2025-03-27_19:35:07,451.25502609999967,formal_neutral,neutral,1,34,18,0.75,2.6559151000110433,1,1,4,null
50,1440p_flscr,1,null,null,2025-03-27_19:35:20,464.24680279998574,formal_neutral,neutral,1,35,16,0.75,2.0578594999969937,0,0,-3,null
50,1440p_flscr,1,null,null,2025-03-27_19:35:30,474.1946651999897,formal_neutral,neutral,1,36,17,0.75,2.463242800004082,0,1,2,null
50,1440p_flscr,1,null,null,2025-03-27_19:35:40,484.7707479999808,formal_neutral,neutral,1,37,18,0.75,2.349201900011394,0,1,3,null
50,1440p_flscr,1,null,null,2025-03-27_19:35:50,494.73468839999987,formal_neutral,neutral,1,38,19,0.75,4.608506400021724,1,0,-2,null
50,1440p_flscr,1,null,null,2025-03-27_19:35:59,503.44751050000195,formal_neutral,neutral,1,39,19,0.75,3.903667599981418,0,0,-3,null
50,1440p_flscr,1,null,null,2025-03-27_19:37:17,581.845852599974,formal_neutral,neutral,1,40,20,0.75,7.400654600001872,1,1,6,null
50,1440p_flscr,1,null,null,2025-03-27_19:37:31,595.4497992999968,formal_neutral,neutral,1,41,21,0.75,3.3963140999840107,1,1,2,null
50,1440p_flscr,1,null,null,2025-03-27_19:37:38,603.1012668999902,formal_neutral,neutral,1,42,20,0.75,2.3243186000036076,0,0,-4,null
50,1440p_flscr,1,null,null,2025-03-27_19:37:47,611.6522578999866,formal_neutral,neutral,1,43,21,0.75,2.5130742999899667,0,0,-3,null
50,1440p_flscr,1,null,null,2025-03-27_19:37:57,621.4009163999872,formal_neutral,neutral,1,44,22,0.75,2.227813100005733,1,1,3,null
50,1440p_flscr,1,null,null,2025-03-27_19:38:04,628.5537033999863,formal_neutral,neutral,1,45,22,0.75,1.8017514000239316,0,0,-3,null
50,1440p_flscr,1,null,null,2025-03-27_19:38:15,639.8262185999774,formal_neutral,neutral,1,46,23,0.75,2.6453271999780554,0,0,-3,null
50,1440p_flscr,1,null,null,2025-03-27_19:38:26,650.6097053999838,formal_neutral,neutral,1,47,23,0.75,2.49324019998312,1,1,4,null
50,1440p_flscr,1,null,null,2025-03-27_19:38:35,659.6764387000003,formal_neutral,neutral,1,48,24,0.75,3.7750326999812387,1,1,6,null
50,1440p_flscr,1,null,null,2025-03-27_19:38:43,667.261927399988,formal_neutral,neutral,1,49,24,0.75,2.169287800003076,0,0,-3,null
50,1440p_flscr,1,null,null,2025-03-27_19:40:13,758.0984332999797,formal_punish_FA,punish_MS,2,0,0,0.75,6.80351480000536,0,0,-3,null
50,1440p_flscr,1,null,null,2025-03-27_19:40:22,766.1105817999924,formal_punish_FA,punish_MS,2,1,0,0.75,2.8037447999813594,1,1,4,null
50,1440p_flscr,1,null,null,2025-03-27_19:40:30,774.613609699998,formal_punish_FA,punish_MS,2,2,1,0.75,3.088918099994771,1,1,4,null
50,1440p_flscr,1,null,null,2025-03-27_19:40:42,786.4886907999753,formal_punish_FA,punish_MS,2,3,1,0.75,3.494075300026452,0,0,-2,null
50,1440p_flscr,1,null,null,2025-03-27_19:40:50,794.4101334000006,formal_punish_FA,punish_MS,2,4,2,0.75,2.325161199987633,1,1,3,null
50,1440p_flscr,1,null,null,2025-03-27_19:40:58,802.6825557999837,formal_punish_FA,punish_MS,2,5,3,0.75,2.6031987000023946,1,1,3,null
50,1440p_flscr,1,null,null,2025-03-27_19:41:07,811.5685765999951,formal_punish_FA,punish_MS,2,6,2,0.75,3.424685599980876,0,0,-6,null
50,1440p_flscr,1,null,null,2025-03-27_19:41:15,819.3874129999895,formal_punish_FA,punish_MS,2,7,4,0.75,2.6713821000012103,1,1,3,null
50,1440p_flscr,1,null,null,2025-03-27_19:41:24,828.2143761999905,formal_punish_FA,punish_MS,2,8,5,0.75,3.6191852999909315,1,1,3,null
50,1440p_flscr,1,null,null,2025-03-27_19:41:32,836.2893303999736,formal_punish_FA,punish_MS,2,9,6,0.75,2.851420599996345,1,1,3,null
50,1440p_flscr,1,null,null,2025-03-27_19:41:39,843.8124981999863,formal_punish_FA,punish_MS,2,10,3,0.75,2.1971046999969985,0,0,-3,null
50,1440p_flscr,1,null,null,2025-03-27_19:41:47,851.3633410999901,formal_punish_FA,punish_MS,2,11,4,0.75,2.3966533000057098,0,0,-4,null
50,1440p_flscr,1,null,null,2025-03-27_19:41:57,861.6596879999852,formal_punish_FA,punish_MS,2,12,7,0.75,3.61681619999581,1,0,-2,null
50,1440p_flscr,1,null,null,2025-03-27_19:42:05,869.5871790999954,formal_punish_FA,punish_MS,2,13,8,0.75,2.4795914000133052,1,0,-2,null
50,1440p_flscr,1,null,null,2025-03-27_19:42:13,877.433441000001,formal_punish_FA,punish_MS,2,14,9,0.75,2.6561186999897473,1,0,-1,null
50,1440p_flscr,1,null,null,2025-03-27_19:42:22,886.7795349999797,formal_punish_FA,punish_MS,2,15,5,0.75,3.016331999999238,0,0,-4,null
50,1440p_flscr,1,null,null,2025-03-27_19:42:31,895.1883985999739,formal_punish_FA,punish_MS,2,16,10,0.75,2.1598227999929804,1,1,3,null
50,1440p_flscr,1,null,null,2025-03-27_19:42:38,902.2892211999861,formal_punish_FA,punish_MS,2,17,6,0.75,1.669430200010538,0,1,2,null
50,1440p_flscr,1,null,null,2025-03-27_19:42:45,909.6694444000022,formal_punish_FA,punish_MS,2,18,11,0.75,2.0132684000127483,1,1,3,null
50,1440p_flscr,1,null,null,2025-03-27_19:42:53,917.8457666999893,formal_punish_FA,punish_MS,2,19,12,0.75,2.0251590000116266,1,1,3,null
50,1440p_flscr,1,null,null,2025-03-27_19:43:02,926.3684978999954,formal_punish_FA,punish_MS,2,20,7,0.75,2.7857509999885224,0,1,2,null
50,1440p_flscr,1,null,null,2025-03-27_19:43:09,933.6409056999837,formal_punish_FA,punish_MS,2,21,8,0.75,2.041520099999616,0,0,-3,null
50,1440p_flscr,1,null,null,2025-03-27_19:43:18,942.2025730999885,formal_punish_FA,punish_MS,2,22,13,0.75,3.283215300005395,1,0,-2,null
50,1440p_flscr,1,null,null,2025-03-27_19:43:25,949.7910133999831,formal_punish_FA,punish_MS,2,23,9,0.75,2.15081600000849,0,1,2,null
50,1440p_flscr,1,null,null,2025-03-27_19:43:36,960.9662520999846,formal_punish_FA,punish_MS,2,24,14,0.75,3.52265100000659,1,1,6,null
50,1440p_flscr,1,null,null,2025-03-27_19:43:46,970.4235508999845,formal_punish_FA,punish_MS,2,25,10,0.75,3.4388214999926277,0,1,1,null
50,1440p_flscr,1,null,null,2025-03-27_19:43:55,979.2249808999768,formal_punish_FA,punish_MS,2,26,11,0.75,2.7741059999971185,0,1,1,null
50,1440p_flscr,1,null,null,2025-03-27_19:44:03,987.1421907999902,formal_punish_FA,punish_MS,2,27,15,0.75,2.61253049998777,1,1,3,null
50,1440p_flscr,1,null,null,2025-03-27_19:44:10,994.8499014999834,formal_punish_FA,punish_MS,2,28,16,0.75,2.346115099993767,1,1,1,null
50,1440p_flscr,1,null,null,2025-03-27_19:44:19,1003.8851008999918,formal_punish_FA,punish_MS,2,29,12,0.75,1.597370499977842,0,1,1,null
50,1440p_flscr,1,null,null,2025-03-27_19:44:29,1013.2399022999743,formal_punish_FA,punish_MS,2,30,13,0.75,3.974383199994918,0,0,-2,null
50,1440p_flscr,1,null,null,2025-03-27_19:44:36,1020.5292877999891,formal_punish_FA,punish_MS,2,31,14,0.75,1.9595017000101507,0,1,1,null
50,1440p_flscr,1,null,null,2025-03-27_19:44:45,1029.4412619999785,formal_punish_FA,punish_MS,2,32,15,0.75,1.3586125999863725,0,0,-1,null
50,1440p_flscr,1,null,null,2025-03-27_19:44:52,1037.0367269999988,formal_punish_FA,punish_MS,2,33,17,0.75,2.245272100000875,1,0,-1,null
50,1440p_flscr,1,null,null,2025-03-27_19:45:03,1047.5797845999768,formal_punish_FA,punish_MS,2,34,18,0.75,4.128944899974158,1,1,2,null
50,1440p_flscr,1,null,null,2025-03-27_19:45:11,1056.0439212999772,formal_punish_FA,punish_MS,2,35,19,0.75,2.9398496999929193,1,1,1,null
50,1440p_flscr,1,null,null,2025-03-27_19:45:20,1064.1660754999903,formal_punish_FA,punish_MS,2,36,16,0.75,2.7494234000041615,0,1,2,null
50,1440p_flscr,1,null,null,2025-03-27_19:45:27,1071.7475319999794,formal_punish_FA,punish_MS,2,37,20,0.75,2.396589899988612,1,1,2,null
50,1440p_flscr,1,null,null,2025-03-27_19:45:34,1079.0695300999796,formal_punish_FA,punish_MS,2,38,17,0.75,2.0540358000143897,0,1,1,null
50,1440p_flscr,1,null,null,2025-03-27_19:45:44,1088.7732640999893,formal_punish_FA,punish_MS,2,39,21,0.75,3.1554928999976255,1,1,4,null
50,1440p_flscr,1,null,null,2025-03-27_19:45:56,1100.3879879000015,formal_punish_FA,punish_MS,2,40,18,0.75,4.156782300007762,0,1,1,null
50,1440p_flscr,1,null,null,2025-03-27_19:46:03,1107.9574612999859,formal_punish_FA,punish_MS,2,41,19,0.75,2.2988546999986283,0,1,2,null
50,1440p_flscr,1,null,null,2025-03-27_19:46:11,1115.4201629000017,formal_punish_FA,punish_MS,2,42,20,0.75,2.145570599997882,0,1,2,null
50,1440p_flscr,1,null,null,2025-03-27_19:46:18,1122.6366156000004,formal_punish_FA,punish_MS,2,43,21,0.75,2.0258336999977473,0,1,2,null
50,1440p_flscr,1,null,null,2025-03-27_19:46:25,1129.1574703999795,formal_punish_FA,punish_MS,2,44,22,0.75,1.3044796999893151,1,0,-1,null
50,1440p_flscr,1,null,null,2025-03-27_19:46:32,1136.4082446999964,formal_punish_FA,punish_MS,2,45,22,0.75,1.7778497000108473,0,1,1,null
50,1440p_flscr,1,null,null,2025-03-27_19:46:40,1144.335064199986,formal_punish_FA,punish_MS,2,46,23,0.75,2.4310671999992337,1,1,1,null
50,1440p_flscr,1,null,null,2025-03-27_19:46:47,1151.9501144999813,formal_punish_FA,punish_MS,2,47,24,0.75,2.3876177000056487,1,0,-1,null
50,1440p_flscr,1,null,null,2025-03-27_19:46:56,1160.4626086999779,formal_punish_FA,punish_MS,2,48,23,0.75,2.2528311999922153,0,1,2,null
50,1440p_flscr,1,null,null,2025-03-27_19:47:04,1168.7445453999972,formal_punish_FA,punish_MS,2,49,24,0.75,2.585871799994493,0,1,3,null
50,1440p_flscr,1,null,null,2025-03-27_19:49:00,1284.3438437999866,formal_punish_MS,punish_FA,3,0,0,0.75,6.082424799998989,1,1,2,null
50,1440p_flscr,1,null,null,2025-03-27_19:49:08,1292.230488399975,formal_punish_MS,punish_FA,3,1,1,0.75,1.7215290000021923,1,1,2,null
50,1440p_flscr,1,null,null,2025-03-27_19:49:15,1299.5730394999846,formal_punish_MS,punish_FA,3,2,0,0.75,2.0631717999931425,0,0,-1,null
50,1440p_flscr,1,null,null,2025-03-27_19:49:21,1305.9935264999804,formal_punish_MS,punish_FA,3,3,1,0.75,1.127842799993232,0,0,-1,null
50,1440p_flscr,1,null,null,2025-03-27_19:49:29,1313.1232349999773,formal_punish_MS,punish_FA,3,4,2,0.75,1.8022257999982685,1,1,2,null
50,1440p_flscr,1,null,null,2025-03-27_19:49:36,1320.3692398999992,formal_punish_MS,punish_FA,3,5,3,0.75,1.963697700004559,1,1,3,null
50,1440p_flscr,1,null,null,2025-03-27_19:49:44,1329.0487701999955,formal_punish_MS,punish_FA,3,6,4,0.75,3.4140214000071865,1,0,-1,null
50,1440p_flscr,1,null,null,2025-03-27_19:49:52,1337.035048299993,formal_punish_MS,punish_FA,3,7,2,0.75,2.102807399991434,0,0,-1,null
50,1440p_flscr,1,null,null,2025-03-27_19:50:00,1344.5979681999888,formal_punish_MS,punish_FA,3,8,5,0.75,2.0008938999962993,1,1,1,null
50,1440p_flscr,1,null,null,2025-03-27_19:50:07,1351.8122200999933,formal_punish_MS,punish_FA,3,9,6,0.75,1.9461818000127096,1,1,2,null
50,1440p_flscr,1,null,null,2025-03-27_19:50:15,1359.1232572000008,formal_punish_MS,punish_FA,3,10,7,0.75,2.033885900018504,1,1,2,null
50,1440p_flscr,1,null,null,2025-03-27_19:50:21,1365.5974173999857,formal_punish_MS,punish_FA,3,11,8,0.75,1.2410653999831993,1,1,1,null
50,1440p_flscr,1,null,null,2025-03-27_19:50:28,1372.7085267999792,formal_punish_MS,punish_FA,3,12,3,0.75,1.8604731999803334,0,0,-1,null
50,1440p_flscr,1,null,null,2025-03-27_19:50:35,1379.82071,formal_punish_MS,punish_FA,3,13,9,0.75,1.8534943999839015,1,1,3,null
50,1440p_flscr,1,null,null,2025-03-27_19:50:42,1386.4005390999955,formal_punish_MS,punish_FA,3,14,4,0.75,1.2153207999945153,0,0,-1,null
50,1440p_flscr,1,null,null,2025-03-27_19:50:50,1394.1080656999839,formal_punish_MS,punish_FA,3,15,5,0.75,2.4023902000044473,0,0,-1,null
50,1440p_flscr,1,null,null,2025-03-27_19:50:57,1401.2454202999943,formal_punish_MS,punish_FA,3,16,6,0.75,1.9044218999915756,0,1,3,null
50,1440p_flscr,1,null,null,2025-03-27_19:51:03,1407.9756372999982,formal_punish_MS,punish_FA,3,17,10,0.75,1.397854400012875,1,1,2,null
50,1440p_flscr,1,null,null,2025-03-27_19:51:12,1416.5789506,formal_punish_MS,punish_FA,3,18,7,0.75,2.7656988999806345,0,0,-2,null
50,1440p_flscr,1,null,null,2025-03-27_19:51:19,1423.6760370999982,formal_punish_MS,punish_FA,3,19,11,0.75,1.8626679999870248,1,1,1,null
50,1440p_flscr,1,null,null,2025-03-27_19:51:27,1431.7167752999812,formal_punish_MS,punish_FA,3,20,8,0.75,2.7216797999863047,0,0,-1,null
50,1440p_flscr,1,null,null,2025-03-27_19:51:35,1439.730266300001,formal_punish_MS,punish_FA,3,21,9,0.75,2.749844900012249,0,1,2,null
50,1440p_flscr,1,null,null,2025-03-27_19:51:42,1446.983234299987,formal_punish_MS,punish_FA,3,22,10,0.75,1.864163299993379,0,0,-1,null
50,1440p_flscr,1,null,null,2025-03-27_19:51:51,1455.86186059998,formal_punish_MS,punish_FA,3,23,12,0.75,3.4915176999929827,1,1,1,null
50,1440p_flscr,1,null,null,2025-03-27_19:51:59,1463.4810157999746,formal_punish_MS,punish_FA,3,24,11,0.75,2.4288595999823883,0,0,-1,null
50,1440p_flscr,1,null,null,2025-03-27_19:52:09,1473.1236051000014,formal_punish_MS,punish_FA,3,25,12,0.75,3.9914818000106607,0,0,-1,null
50,1440p_flscr,1,null,null,2025-03-27_19:52:15,1479.9318674999813,formal_punish_MS,punish_FA,3,26,13,0.75,1.355639199988218,1,1,1,null
50,1440p_flscr,1,null,null,2025-03-27_19:52:23,1487.2469397999812,formal_punish_MS,punish_FA,3,27,13,0.75,1.9036625000007916,0,1,2,null
50,1440p_flscr,1,null,null,2025-03-27_19:52:30,1494.5518152999866,formal_punish_MS,punish_FA,3,28,14,0.75,1.9947756999754347,0,0,-1,null
50,1440p_flscr,1,null,null,2025-03-27_19:52:38,1502.2146255999978,formal_punish_MS,punish_FA,3,29,14,0.75,1.5547593999945093,1,0,-1,null
50,1440p_flscr,1,null,null,2025-03-27_19:52:44,1508.688354199985,formal_punish_MS,punish_FA,3,30,15,0.75,1.2624631999933627,0,1,1,null
50,1440p_flscr,1,null,null,2025-03-27_19:52:51,1515.3318078999873,formal_punish_MS,punish_FA,3,31,15,0.75,1.2501240000128746,1,1,1,null
50,1440p_flscr,1,null,null,2025-03-27_19:52:58,1522.4947728999832,formal_punish_MS,punish_FA,3,32,16,0.75,1.8608651999966241,0,0,-2,null
50,1440p_flscr,1,null,null,2025-03-27_19:53:06,1530.8434968999936,formal_punish_MS,punish_FA,3,33,17,0.75,1.7559138000069652,0,0,-2,null
50,1440p_flscr,1,null,null,2025-03-27_19:53:13,1538.024798599974,formal_punish_MS,punish_FA,3,34,16,0.75,1.6759472000121605,1,0,-1,null
50,1440p_flscr,1,null,null,2025-03-27_19:53:20,1545.0609324999969,formal_punish_MS,punish_FA,3,35,17,0.75,1.7214420000091195,1,0,-1,null
50,1440p_flscr,1,null,null,2025-03-27_19:53:28,1552.7713895999768,formal_punish_MS,punish_FA,3,36,18,0.75,2.4653212999983225,0,0,-1,null
50,1440p_flscr,1,null,null,2025-03-27_19:53:42,1566.311429399997,formal_punish_MS,punish_FA,3,37,18,0.75,7.999713500001235,1,0,-1,null
50,1440p_flscr,1,null,null,2025-03-27_19:53:49,1573.5085140999872,formal_punish_MS,punish_FA,3,38,19,0.75,2.3164190000097733,0,0,-1,null
50,1440p_flscr,1,null,null,2025-03-27_19:53:58,1582.326461699995,formal_punish_MS,punish_FA,3,39,19,0.75,1.888600200007204,1,0,-1,null
50,1440p_flscr,1,null,null,2025-03-27_19:54:05,1589.6759054999857,formal_punish_MS,punish_FA,3,40,20,0.75,2.0770279999997,1,0,-2,null
50,1440p_flscr,1,null,null,2025-03-27_19:54:12,1596.946204399981,formal_punish_MS,punish_FA,3,41,20,0.75,2.011817999999039,0,0,-2,null
50,1440p_flscr,1,null,null,2025-03-27_19:54:19,1603.44158709998,formal_punish_MS,punish_FA,3,42,21,0.75,1.265779500012286,1,1,1,null
50,1440p_flscr,1,null,null,2025-03-27_19:54:26,1610.1334446999826,formal_punish_MS,punish_FA,3,43,21,0.75,1.4379669000045396,0,0,-2,null
50,1440p_flscr,1,null,null,2025-03-27_19:54:33,1617.752872299985,formal_punish_MS,punish_FA,3,44,22,0.75,2.4153065999853425,0,0,-3,null
50,1440p_flscr,1,null,null,2025-03-27_19:54:40,1624.9131835000007,formal_punish_MS,punish_FA,3,45,22,0.75,1.982169700000668,1,0,-2,null
50,1440p_flscr,1,null,null,2025-03-27_19:54:47,1631.8584474999807,formal_punish_MS,punish_FA,3,46,23,0.75,1.6403282000101171,1,0,-2,null
50,1440p_flscr,1,null,null,2025-03-27_19:54:54,1638.6364110999857,formal_punish_MS,punish_FA,3,47,23,0.75,1.463539899996249,0,0,-1,null
50,1440p_flscr,1,null,null,2025-03-27_19:55:03,1647.208291499992,formal_punish_MS,punish_FA,3,48,24,0.75,3.2732074999948964,0,1,1,null
50,1440p_flscr,1,null,null,2025-03-27_19:55:14,1658.778368899977,formal_punish_MS,punish_FA,3,49,24,0.75,2.2312393999891356,1,1,4,null
